File: FTIR/dry_coagulation/gelatin_powder.csv
Created as New Dataset,Sample 000 By FTIR User 2.0 Date Friday, April 12 2024
cm-1,%T
4000.00,100.04
3997.00,100.04
3994.00,100.04
3991.00,100.03
3988.00,100.03
3985.00,100.03
3982.00,100.03
3979.00,100.03
3976.00,100.03
3973.00,100.03
3970.00,100.03
3967.00,100.03
3964.00,100.03
3961.00,100.02
3958.00,100.02
3955.00,100.02
3952.00,100.02
3949.00,100.02
3946.00,100.02
3943.00,100.00
3940.00,100.01
3937.00,100.02
3934.00,100.02
3931.00,100.01
3928.00,99.99
3925.00,99.99
3922.00,100.00
3919.00,99.99
3916.00,100.01
3913.00,100.01
3910.00,100.01
3907.00,100.00
3904.00,99.98
3901.00,99.93
3898.00,99.93
3895.00,99.96
3892.00,99.98
3889.00,99.99
3886.00,99.95
3883.00,99.95
3880.00,99.94
3877.00,99.97
3874.00,99.96
3871.00,99.95
3868.00,99.93
3865.00,99.91
3862.00,99.94
3859.00,99.95
3856.00,99.95
3853.00,99.91
3850.00,99.90
3847.00,99.93
3844.00,99.96
3841.00,99.95
3838.00,99.90
3835.00,99.89
3832.00,99.91
3829.00,99.95
3826.00,99.96
3823.00,99.95
3820.00,99.92
3817.00,99.90
3814.00,99.93
3811.00,99.97
3808.00,99.98
3805.00,99.98
3802.00,99.92
3799.00,99.93
3796.00,99.91
3793.00,99.97
3790.00,99.99
3787.00,100.00
3784.00,100.00
3781.00,99.98
3778.00,99.98
3775.00,99.98
3772.00,99.99
3769.00,99.98
3766.00,99.95
3763.00,99.96
3760.00,99.95
3757.00,99.96
3754.00,99.94
3751.00,99.90
3748.00,99.84
3745.00,99.80
3742.00,99.89
3739.00,99.90
3736.00,99.89
3733.00,99.87
3730.00,99.89
3727.00,99.92
3724.00,99.94
3721.00,99.94
3718.00,99.95
3715.00,99.96
3712.00,99.95
3709.00,99.92
3706.00,99.94
3703.00,99.96
3700.00,99.97
3697.00,99.98
3694.00,99.99
3691.00,99.98
3688.00,99.92
3685.00,99.92
3682.00,99.97
3679.00,99.99
3676.00,99.92
3673.00,99.87
3670.00,99.83
3667.00,99.90
3664.00,99.95
3661.00,99.99
3658.00,100.00
3655.00,99.98
3652.00,99.92
3649.00,99.89
3646.00,99.86
3643.00,99.92
3640.00,99.96
3637.00,99.98
3634.00,99.97
3631.00,99.96
3628.00,99.91
3625.00,99.92
3622.00,99.94
3619.00,99.94
3616.00,99.90
3613.00,99.89
3610.00,99.90
3607.00,99.91
3604.00,99.93
3601.00,99.95
3598.00,99.96
3595.00,99.93
3592.00,99.94
3589.00,99.93
3586.00,99.91
3583.00,99.92
3580.00,99.94
3577.00,99.95
3574.00,99.95
3571.00,99.96
3568.00,99.94
3565.00,99.89
3562.00,99.88
3559.00,99.92
3556.00,99.94
3553.00,99.94
3550.00,99.93
3547.00,99.92
3544.00,99.92
3541.00,99.91
3538.00,99.92
3535.00,99.93
3532.00,99.92
3529.00,99.92
3526.00,99.92
3523.00,99.90
3520.00,99.90
3517.00,99.91
3514.00,99.92
3511.00,99.91
3508.00,99.90
3505.00,99.90
3502.00,99.90
3499.00,99.89
3496.00,99.89
3493.00,99.90
3490.00,99.91
3487.00,99.90
3484.00,99.89
3481.00,99.90
3478.00,99.89
3475.00,99.89
3472.00,99.90
3469.00,99.91
3466.00,99.90
3463.00,99.89
3460.00,99.89
3457.00,99.89
3454.00,99.88
3451.00,99.88
3448.00,99.87
3445.00,99.87
3442.00,99.86
3439.00,99.87
3436.00,99.88
3433.00,99.88
3430.00,99.87
3427.00,99.86
3424.00,99.85
3421.00,99.84
3418.00,99.84
3415.00,99.84
3412.00,99.85
3409.00,99.85
3406.00,99.85
3403.00,99.85
3400.00,99.84
3397.00,99.83
3394.00,99.83
3391.00,99.83
3388.00,99.83
3385.00,99.83
3382.00,99.82
3379.00,99.82
3376.00,99.82
3373.00,99.81
3370.00,99.82
3367.00,99.81
3364.00,99.80
3361.00,99.79
3358.00,99.79
3355.00,99.79
3352.00,99.80
3349.00,99.79
3346.00,99.80
3343.00,99.79
3340.00,99.78
3337.00,99.78
3334.00,99.77
3331.00,99.78
3328.00,99.78
3325.00,99.78
3322.00,99.76
3319.00,99.76
3316.00,99.76
3313.00,99.76
3310.00,99.75
3307.00,99.76
3304.00,99.76
3301.00,99.76
3298.00,99.76
3295.00,99.77
3292.00,99.76
3289.00,99.75
3286.00,99.75
3283.00,99.76
3280.00,99.75
3277.00,99.75
3274.00,99.75
3271.00,99.76
3268.00,99.76
3265.00,99.75
3262.00,99.76
3259.00,99.77
3256.00,99.77
3253.00,99.77
3250.00,99.77
3247.00,99.78
3244.00,99.78
3241.00,99.78
3238.00,99.78
3235.00,99.80
3232.00,99.79
3229.00,99.79
3226.00,99.80
3223.00,99.78
3220.00,99.78
3217.00,99.78
3214.00,99.80
3211.00,99.80
3208.00,99.80
3205.00,99.80
3202.00,99.80
3199.00,99.81
3196.00,99.81
3193.00,99.81
3190.00,99.81
3187.00,99.82
3184.00,99.82
3181.00,99.82
3178.00,99.82
3175.00,99.82
3172.00,99.83
3169.00,99.84
3166.00,99.84
3163.00,99.84
3160.00,99.83
3157.00,99.84
3154.00,99.84
3151.00,99.86
3148.00,99.85
3145.00,99.86
3142.00,99.85
3139.00,99.86
3136.00,99.86
3133.00,99.86
3130.00,99.86
3127.00,99.86
3124.00,99.86
3121.00,99.86
3118.00,99.87
3115.00,99.87
3112.00,99.86
3109.00,99.86
3106.00,99.86
3103.00,99.86
3100.00,99.85
3097.00,99.84
3094.00,99.84
3091.00,99.85
3088.00,99.86
3085.00,99.85
3082.00,99.86
3079.00,99.86
3076.00,99.85
3073.00,99.85
3070.00,99.85
3067.00,99.84
3064.00,99.84
3061.00,99.85
3058.00,99.85
3055.00,99.85
3052.00,99.86
3049.00,99.86
3046.00,99.86
3043.00,99.87
3040.00,99.86
3037.00,99.87
3034.00,99.87
3031.00,99.86
3028.00,99.86
3025.00,99.87
3022.00,99.86
3019.00,99.87
3016.00,99.88
3013.00,99.87
3010.00,99.87
3007.00,99.87
3004.00,99.87
3001.00,99.88
2998.00,99.88
2995.00,99.87
2992.00,99.87
2989.00,99.86
2986.00,99.86
2983.00,99.85
2980.00,99.85
2977.00,99.85
2974.00,99.85
2971.00,99.85
2968.00,99.85
2965.00,99.85
2962.00,99.84
2959.00,99.84
2956.00,99.84
2953.00,99.84
2950.00,99.84
2947.00,99.84
2944.00,99.84
2941.00,99.84
2938.00,99.84
2935.00,99.84
2932.00,99.85
2929.00,99.86
2926.00,99.86
2923.00,99.86
2920.00,99.86
2917.00,99.86
2914.00,99.86
2911.00,99.86
2908.00,99.86
2905.00,99.87
2902.00,99.87
2899.00,99.87
2896.00,99.88
2893.00,99.87
2890.00,99.87
2887.00,99.87
2884.00,99.87
2881.00,99.87
2878.00,99.86
2875.00,99.87
2872.00,99.88
2869.00,99.88
2866.00,99.88
2863.00,99.88
2860.00,99.88
2857.00,99.89
2854.00,99.88
2851.00,99.89
2848.00,99.89
2845.00,99.89
2842.00,99.89
2839.00,99.90
2836.00,99.90
2833.00,99.90
2830.00,99.90
2827.00,99.90
2824.00,99.90
2821.00,99.90
2818.00,99.89
2815.00,99.90
2812.00,99.90
2809.00,99.90
2806.00,99.90
2803.00,99.89
2800.00,99.90
2797.00,99.90
2794.00,99.90
2791.00,99.90
2788.00,99.90
2785.00,99.90
2782.00,99.90
2779.00,99.90
2776.00,99.90
2773.00,99.90
2770.00,99.90
2767.00,99.90
2764.00,99.90
2761.00,99.90
2758.00,99.90
2755.00,99.90
2752.00,99.90
2749.00,99.90
2746.00,99.90
2743.00,99.91
2740.00,99.90
2737.00,99.90
2734.00,99.90
2731.00,99.90
2728.00,99.90
2725.00,99.91
2722.00,99.91
2719.00,99.91
2716.00,99.91
2713.00,99.91
2710.00,99.91
2707.00,99.91
2704.00,99.90
2701.00,99.91
2698.00,99.91
2695.00,99.90
2692.00,99.91
2689.00,99.91
2686.00,99.90
2683.00,99.90
2680.00,99.91
2677.00,99.90
2674.00,99.91
2671.00,99.91
2668.00,99.90
2665.00,99.90
2662.00,99.90
2659.00,99.90
2656.00,99.90
2653.00,99.90
2650.00,99.89
2647.00,99.89
2644.00,99.89
2641.00,99.89
2638.00,99.89
2635.00,99.89
2632.00,99.89
2629.00,99.90
2626.00,99.90
2623.00,99.90
2620.00,99.89
2617.00,99.89
2614.00,99.90
2611.00,99.89
2608.00,99.88
2605.00,99.89
2602.00,99.88
2599.00,99.89
2596.00,99.89
2593.00,99.89
2590.00,99.89
2587.00,99.88
2584.00,99.88
2581.00,99.89
2578.00,99.89
2575.00,99.88
2572.00,99.88
2569.00,99.89
2566.00,99.89
2563.00,99.88
2560.00,99.88
2557.00,99.88
2554.00,99.88
2551.00,99.89
2548.00,99.89
2545.00,99.89
2542.00,99.89
2539.00,99.89
2536.00,99.89
2533.00,99.89
2530.00,99.88
2527.00,99.88
2524.00,99.89
2521.00,99.89
2518.00,99.89
2515.00,99.89
2512.00,99.88
2509.00,99.88
2506.00,99.88
2503.00,99.89
2500.00,99.88
2497.00,99.88
2494.00,99.89
2491.00,99.89
2488.00,99.88
2485.00,99.89
2482.00,99.88
2479.00,99.88
2476.00,99.89
2473.00,99.88
2470.00,99.88
2467.00,99.89
2464.00,99.89
2461.00,99.88
2458.00,99.88
2455.00,99.88
2452.00,99.88
2449.00,99.88
2446.00,99.87
2443.00,99.87
2440.00,99.87
2437.00,99.88
2434.00,99.88
2431.00,99.88
2428.00,99.88
2425.00,99.88
2422.00,99.88
2419.00,99.88
2416.00,99.88
2413.00,99.87
2410.00,99.87
2407.00,99.88
2404.00,99.88
2401.00,99.87
2398.00,99.87
2395.00,99.87
2392.00,99.88
2389.00,99.88
2386.00,99.88
2383.00,99.90
2380.00,99.91
2377.00,99.91
2374.00,99.89
2371.00,99.89
2368.00,99.90
2365.00,99.88
2362.00,99.89
2359.00,99.90
2356.00,99.88
2353.00,99.86
2350.00,99.87
2347.00,99.89
2344.00,99.91
2341.00,99.88
2338.00,99.87
2335.00,99.87
2332.00,99.88
2329.00,99.87
2326.00,99.85
2323.00,99.85
2320.00,99.85
2317.00,99.85
2314.00,99.84
2311.00,99.85
2308.00,99.85
2305.00,99.85
2302.00,99.84
2299.00,99.84
2296.00,99.85
2293.00,99.86
2290.00,99.85
2287.00,99.85
2284.00,99.84
2281.00,99.85
2278.00,99.85
2275.00,99.85
2272.00,99.84
2269.00,99.84
2266.00,99.84
2263.00,99.84
2260.00,99.84
2257.00,99.84
2254.00,99.84
2251.00,99.84
2248.00,99.84
2245.00,99.83
2242.00,99.83
2239.00,99.83
2236.00,99.83
2233.00,99.85
2230.00,99.83
2227.00,99.83
2224.00,99.82
2221.00,99.82
2218.00,99.83
2215.00,99.81
2212.00,99.81
2209.00,99.82
2206.00,99.82
2203.00,99.81
2200.00,99.83
2197.00,99.83
2194.00,99.83
2191.00,99.83
2188.00,99.84
2185.00,99.81
2182.00,99.84
2179.00,99.83
2176.00,99.79
2173.00,99.82
2170.00,99.84
2167.00,99.82
2164.00,99.79
2161.00,99.78
2158.00,99.80
2155.00,99.83
2152.00,99.83
2149.00,99.82
2146.00,99.82
2143.00,99.84
2140.00,99.84
2137.00,99.84
2134.00,99.84
2131.00,99.82
2128.00,99.83
2125.00,99.83
2122.00,99.82
2119.00,99.80
2116.00,99.82
2113.00,99.82
2110.00,99.82
2107.00,99.82
2104.00,99.80
2101.00,99.81
2098.00,99.81
2095.00,99.81
2092.00,99.81
2089.00,99.81
2086.00,99.81
2083.00,99.80
2080.00,99.81
2077.00,99.82
2074.00,99.83
2071.00,99.81
2068.00,99.80
2065.00,99.81
2062.00,99.81
2059.00,99.80
2056.00,99.79
2053.00,99.80
2050.00,99.80
2047.00,99.80
2044.00,99.78
2041.00,99.77
2038.00,99.78
2035.00,99.77
2032.00,99.78
2029.00,99.78
2026.00,99.79
2023.00,99.79
2020.00,99.79
2017.00,99.76
2014.00,99.75
2011.00,99.75
2008.00,99.76
2005.00,99.77
2002.00,99.77
1999.00,99.80
1996.00,99.77
1993.00,99.77
1990.00,99.77
1987.00,99.78
1984.00,99.76
1981.00,99.76
1978.00,99.77
1975.00,99.79
1972.00,99.77
1969.00,99.77
1966.00,99.77
1963.00,99.76
1960.00,99.79
1957.00,99.79
1954.00,99.78
1951.00,99.79
1948.00,99.79
1945.00,99.78
1942.00,99.78
1939.00,99.77
1936.00,99.79
1933.00,99.79
1930.00,99.79
1927.00,99.78
1924.00,99.79
1921.00,99.78
1918.00,99.78
1915.00,99.78
1912.00,99.78
1909.00,99.79
1906.00,99.79
1903.00,99.77
1900.00,99.77
1897.00,99.78
1894.00,99.78
1891.00,99.78
1888.00,99.78
1885.00,99.79
1882.00,99.78
1879.00,99.78
1876.00,99.78
1873.00,99.79
1870.00,99.79
1867.00,99.78
1864.00,99.77
1861.00,99.79
1858.00,99.79
1855.00,99.78
1852.00,99.78
1849.00,99.78
1846.00,99.79
1843.00,99.78
1840.00,99.78
1837.00,99.79
1834.00,99.79
1831.00,99.80
1828.00,99.79
1825.00,99.78
1822.00,99.79
1819.00,99.79
1816.00,99.79
1813.00,99.79
1810.00,99.78
1807.00,99.79
1804.00,99.79
1801.00,99.79
1798.00,99.79
1795.00,99.78
1792.00,99.78
1789.00,99.79
1786.00,99.79
1783.00,99.80
1780.00,99.79
1777.00,99.79
1774.00,99.80
1771.00,99.80
1768.00,99.78
1765.00,99.80
1762.00,99.79
1759.00,99.79
1756.00,99.79
1753.00,99.80
1750.00,99.80
1747.00,99.78
1744.00,99.77
1741.00,99.77
1738.00,99.79
1735.00,99.78
1732.00,99.79
1729.00,99.75
1726.00,99.76
1723.00,99.76
1720.00,99.75
1717.00,99.75
1714.00,99.72
1711.00,99.71
1708.00,99.70
1705.00,99.67
1702.00,99.64
1699.00,99.63
1696.00,99.54
1693.00,99.54
1690.00,99.50
1687.00,99.47
1684.00,99.42
1681.00,99.37
1678.00,99.34
1675.00,99.32
1672.00,99.28
1669.00,99.23
1666.00,99.20
1663.00,99.17
1660.00,99.12
1657.00,99.10
1654.00,99.09
1651.00,99.03
1648.00,98.99
1645.00,98.95
1642.00,98.95
1639.00,98.95
1636.00,98.93
1633.00,98.91
1630.00,98.91
1627.00,98.93
1624.00,98.95
1621.00,98.98
1618.00,99.01
1615.00,99.07
1612.00,99.11
1609.00,99.16
1606.00,99.20
1603.00,99.25
1600.00,99.29
1597.00,99.31
1594.00,99.33
1591.00,99.35
1588.00,99.36
1585.00,99.36
1582.00,99.36
1579.00,99.36
1576.00,99.34
1573.00,99.33
1570.00,99.31
1567.00,99.29
1564.00,99.27
1561.00,99.26
1558.00,99.22
1555.00,99.18
1552.00,99.17
1549.00,99.13
1546.00,99.13
1543.00,99.12
1540.00,99.06
1537.00,99.07
1534.00,99.06
1531.00,99.05
1528.00,99.06
1525.00,99.05
1522.00,99.04
1519.00,99.04
1516.00,99.05
1513.00,99.08
1510.00,99.11
1507.00,99.12
1504.00,99.19
1501.00,99.22
1498.00,99.26
1495.00,99.31
1492.00,99.34
1489.00,99.36
1486.00,99.38
1483.00,99.40
1480.00,99.41
1477.00,99.40
1474.00,99.39
1471.00,99.37
1468.00,99.36
1465.00,99.35
1462.00,99.33
1459.00,99.32
1456.00,99.26
1453.00,99.25
1450.00,99.24
1447.00,99.23
1444.00,99.24
1441.00,99.24
1438.00,99.25
1435.00,99.26
1432.00,99.27
1429.00,99.29
1426.00,99.30
1423.00,99.31
1420.00,99.32
1417.00,99.32
1414.00,99.32
1411.00,99.32
1408.00,99.32
1405.00,99.32
1402.00,99.32
1399.00,99.32
1396.00,99.32
1393.00,99.33
1390.00,99.34
1387.00,99.35
1384.00,99.36
1381.00,99.37
1378.00,99.38
1375.00,99.39
1372.00,99.40
1369.00,99.41
1366.00,99.43
1363.00,99.43
1360.00,99.43
1357.00,99.44
1354.00,99.44
1351.00,99.43
1348.00,99.42
1345.00,99.41
1342.00,99.40
1339.00,99.38
1336.00,99.37
1333.00,99.38
1330.00,99.38
1327.00,99.38
1324.00,99.39
1321.00,99.39
1318.00,99.39
1315.00,99.40
1312.00,99.40
1309.00,99.41
1306.00,99.41
1303.00,99.42
1300.00,99.43
1297.00,99.43
1294.00,99.43
1291.00,99.43
1288.00,99.42
1285.00,99.42
1282.00,99.41
1279.00,99.40
1276.00,99.40
1273.00,99.40
1270.00,99.39
1267.00,99.39
1264.00,99.38
1261.00,99.38
1258.00,99.37
1255.00,99.36
1252.00,99.35
1249.00,99.34
1246.00,99.32
1243.00,99.31
1240.00,99.31
1237.00,99.30
1234.00,99.30
1231.00,99.30
1228.00,99.30
1225.00,99.31
1222.00,99.33
1219.00,99.35
1216.00,99.36
1213.00,99.37
1210.00,99.37
1207.00,99.37
1204.00,99.37
1201.00,99.37
1198.00,99.37
1195.00,99.38
1192.00,99.39
1189.00,99.40
1186.00,99.41
1183.00,99.42
1180.00,99.43
1177.00,99.42
1174.00,99.43
1171.00,99.43
1168.00,99.42
1165.00,99.42
1162.00,99.41
1159.00,99.41
1156.00,99.42
1153.00,99.42
1150.00,99.44
1147.00,99.44
1144.00,99.44
1141.00,99.45
1138.00,99.45
1135.00,99.45
1132.00,99.44
1129.00,99.44
1126.00,99.44
1123.00,99.44
1120.00,99.43
1117.00,99.42
1114.00,99.42
1111.00,99.41
1108.00,99.40
1105.00,99.39
1102.00,99.38
1099.00,99.37
1096.00,99.37
1093.00,99.36
1090.00,99.35
1087.00,99.34
1084.00,99.32
1081.00,99.32
1078.00,99.32
1075.00,99.33
1072.00,99.34
1069.00,99.34
1066.00,99.34
1063.00,99.34
1060.00,99.35
1057.00,99.36
1054.00,99.37
1051.00,99.37
1048.00,99.38
1045.00,99.39
1042.00,99.40
1039.00,99.40
1036.00,99.39
1033.00,99.39
1030.00,99.38
1027.00,99.39
1024.00,99.40
1021.00,99.41
1018.00,99.42
1015.00,99.43
1012.00,99.44
1009.00,99.44
1006.00,99.45
1003.00,99.46
1000.00,99.47
997.00,99.47
994.00,99.48
991.00,99.48
988.00,99.49
985.00,99.48
982.00,99.48
979.00,99.48
976.00,99.48
973.00,99.48
970.00,99.49
967.00,99.49
964.00,99.49
961.00,99.49
958.00,99.51
955.00,99.51
952.00,99.51
949.00,99.51
946.00,99.51
943.00,99.51
940.00,99.50
937.00,99.51
934.00,99.51
931.00,99.51
928.00,99.50
925.00,99.50
922.00,99.49
919.00,99.50
916.00,99.50
913.00,99.50
910.00,99.51
907.00,99.50
904.00,99.50
901.00,99.50
898.00,99.50
895.00,99.51
892.00,99.50
889.00,99.50
886.00,99.50
883.00,99.49
880.00,99.48
877.00,99.47
874.00,99.47
871.00,99.47
868.00,99.48
865.00,99.47
862.00,99.47
859.00,99.47
856.00,99.46
853.00,99.46
850.00,99.47
847.00,99.47
844.00,99.46
841.00,99.45
838.00,99.46
835.00,99.47
832.00,99.46
829.00,99.46
826.00,99.44
823.00,99.43
820.00,99.44
817.00,99.42
814.00,99.42
811.00,99.41
808.00,99.42
805.00,99.41
802.00,99.40
799.00,99.39
796.00,99.39
793.00,99.38
790.00,99.38
787.00,99.36
784.00,99.36
781.00,99.35
778.00,99.35
775.00,99.34
772.00,99.34
769.00,99.33
766.00,99.32
763.00,99.30
760.00,99.29
757.00,99.29
754.00,99.27
751.00,99.27
748.00,99.26
745.00,99.25
742.00,99.24
739.00,99.25
736.00,99.25
733.00,99.23
730.00,99.21
727.00,99.20
724.00,99.21
721.00,99.20
718.00,99.18
715.00,99.17
712.00,99.15
709.00,99.14
706.00,99.13
703.00,99.12
700.00,99.10
697.00,99.10
694.00,99.09
691.00,99.07
688.00,99.07
685.00,99.07
682.00,99.06
679.00,99.06
676.00,99.03
673.00,99.01
670.00,99.05
667.00,98.99
664.00,99.00
661.00,98.99
658.00,98.99
655.00,98.98
652.00,98.95
649.00,98.94
646.00,98.95
643.00,98.91
640.00,98.89
637.00,98.94
634.00,98.89
631.00,98.85
628.00,98.89
625.00,98.84
622.00,98.77
619.00,98.84
616.00,98.82
613.00,98.70
610.00,98.75
607.00,98.73
604.00,98.74
601.00,98.71
598.00,98.76
595.00,98.72
592.00,98.71
589.00,98.72
586.00,98.68
583.00,98.72
580.00,98.75
577.00,98.52
574.00,98.61
571.00,98.70
568.00,98.57
565.00,98.39
562.00,98.63
559.00,98.48
556.00,98.71
553.00,98.43
550.00,98.64
547.00,98.67
544.00,98.38
541.00,98.52
538.00,98.35
535.00,98.11
532.00,97.58
529.00,98.76
526.00,98.95
523.00,97.75
520.00,99.12
517.00,99.02
514.00,99.13
511.00,87.09
508.00,96.26
505.00,99.37
502.00,103.65
499.00,309.67
496.00,176.83
493.00,30.90
490.00,34.43
487.00,115.65
484.00,126.02
481.00,144.22
478.00,104.93
475.00,81.48
472.00,95.36
469.00,113.46
466.00,121.71
463.00,106.54
460.00,114.08
457.00,89.43
454.00,98.34
451.00,50.51
448.00,95.48
445.00,110.65
442.00,108.59
439.00,65.68
436.00,37.91
433.00,99.65
430.00,87.18
427.00,92.18
424.00,98.58
421.00,100.68
418.00,98.57
415.00,74.73
412.00,86.56
409.00,101.29
406.00,107.38
403.00,130.02
400.00,88.18